timestamp_ns,accel_x,accel_y,accel_z
5504922373106,0.0,0.0,0.0
5504931832429,0.02323842,0.032375336,0.37930465
5504931832429,0.02323842,0.032375336,0.37930465
5504936562064,-0.11264694,-0.0011029243,0.55134034
5504993317481,-0.12782454,-0.28848457,-0.5187454
5505026424772,0.057664514,-0.349998,-0.6311822
5505026424772,0.057664514,-0.349998,-0.6311822
5505054802533,0.17096698,-0.40247107,0.5533962
5505073721022,-0.23116279,-0.6412091,1.3797541
5505073721022,-0.23116279,-0.6412091,1.3797541
5505106828366,-0.46722358,-0.6997943,2.2568645
5505125746856,-0.351642,-0.4517002,1.7429962
5505125746856,-0.351642,-0.4517002,1.7429962
5505158854304,-0.33757627,-0.4031186,1.8145809
5505158854304,-0.33757627,-0.4031186,1.8145809
5505158854304,-0.33757627,-0.4031186,1.8145809
5505182502429,-0.20997304,-0.3993044,2.2587414
5505210880241,0.18116951,0.12980032,1.3188324
5505210880241,0.18116951,0.12980032,1.3188324
5505229798783,0.23996353,0.14832449,0.7806797
5505234528418,0.24337626,0.12252283,0.74240017
5505258176595,0.10973203,0.21339035,1.1288042
5505281824824,0.07589471,0.3179512,1.3897123
5505286554460,0.14819372,0.21879482,1.3920622
5505305473002,0.12612689,-0.022505283,0.92875004
5505310202637,0.17879826,-0.055053234,0.6971178
5505329121231,0.4411283,-0.27749872,0.18774319
5505329121231,0.4411283,-0.27749872,0.18774319
5505333850866,0.39995563,-0.35868573,0.28645325
5505348039824,0.20299196,-0.46049118,0.33083057
5505348039824,0.20299196,-0.46049118,0.33083057
5505348039824,0.20299196,-0.46049118,0.33083057
5505352769460,0.12587863,-0.42507577,0.24697208
5505366958418,-0.17695522,-0.3341143,-0.12218571
5505366958418,-0.17695522,-0.3341143,-0.12218571
5505381147324,-0.040247142,-0.29365516,-0.35653973
5505381147324,-0.040247142,-0.29365516,-0.35653973
5505385877012,-0.059219837,-0.29781985,-0.3344841
5505400065918,0.045690835,-0.23668146,-0.19761848
5505400065918,0.045690835,-0.23668146,-0.19761848
5505404795606,0.11727053,-0.25259185,-0.08255577
5505414254877,0.029895186,-0.3124168,0.110547066
5505414254877,0.029895186,-0.3124168,0.110547066
5505418984564,-0.121447384,-0.20054913,0.18448734
5505428443835,-0.30267018,-0.17509031,0.35679817
5505428443835,-0.30267018,-0.17509031,0.35679817
5505433173522,-0.25135213,-0.18981147,0.2873478
5505437903158,-0.21124786,-0.07700229,0.26665688
5505447362481,-0.0776543,0.079067945,0.26607418
5505447362481,-0.0776543,0.079067945,0.26607418
5505452092116,-0.094659984,0.027855396,0.21226406
5505466281074,-0.17316258,0.013935566,0.542613
5505466281074,-0.17316258,0.013935566,0.542613
5505471010762,-0.4875698,-0.628494,0.74695396
5505480470085,0.09592605,0.32043314,0.8335962
5505480470085,0.09592605,0.32043314,0.8335962
5505485199720,0.31360555,0.66197205,0.9291067
5505499388679,-0.18215704,0.33664846,1.2159376
5505499388679,-0.18215704,0.33664846,1.2159376
5505504118366,-0.33145326,0.1471951,1.2142639
5505513577689,-0.26044238,0.0810945,1.1303139
5505518307324,-0.14489472,0.15759683,1.1124763
5505532496335,-0.024814844,0.09382558,0.94801426
5505537225970,-0.0039311647,0.029028177,0.8290663
5505546685293,0.24816966,-0.03359604,0.46130562
5505546685293,0.24816966,-0.03359604,0.46130562
5505551414981,0.26489544,-0.004586935,0.28406525
5505565603991,0.20994389,-0.03619671,-0.08620167
5505570333627,0.25056708,0.027252436,-0.11884117
5505579792949,0.31876123,0.07997441,-0.040665627
5505584522637,0.27266335,0.0025894642,0.048300743
5505598711647,0.27075076,-0.22325647,0.29406738
5505598711647,0.27075076,-0.22325647,0.29406738
5505598711647,0.27075076,-0.22325647,0.29406738
5505603441283,0.30892384,-0.15465236,0.3022051
5505612900658,0.29989564,0.050465345,0.09403515
5505617630293,0.33649862,0.0013754368,-0.104810715
5505631819304,0.07683885,-0.16070509,-0.42245293
5505631819304,0.07683885,-0.16070509,-0.42245293
5505636548991,0.047192335,-0.1297934,-0.4604168
5505655467689,-0.07813227,0.23834133,-0.53071594
5505655467689,-0.07813227,0.23834133,-0.53071594
5505660197324,-0.005825162,0.22513294,-0.48305225
5505674386387,0.095338106,0.08541012,-0.42808723
5505674386387,0.095338106,0.08541012,-0.42808723
5505679116022,0.18628466,0.02803731,-0.4075222
5505693305085,0.2329762,-0.63707566,-0.4689045
5505707494095,0.18894577,-0.20821333,-0.55187035
5505707494095,0.18894577,-0.20821333,-0.55187035
5505707494095,0.18894577,-0.20821333,-0.55187035
5505712223783,0.042247415,-0.2572496,-0.45662594
5505726412793,0.14167273,-0.084356904,-0.39600563
5505731142481,0.03634107,-0.122222304,-0.16127777
5505735872168,-0.10554105,-0.18851185,0.060217857
5505754790866,-0.38990194,-0.41375387,0.4807577
5505773709616,0.49291188,0.16807914,0.61448
5505773709616,0.49291188,0.16807914,0.61448
5505787898679,0.5194576,0.032519817,0.5108805
5505797358054,0.50557196,-0.14783913,0.5419388
5505797358054,0.50557196,-0.14783913,0.5419388
5505802087741,0.3533426,-0.117488265,0.58236885
5505816276752,0.6589058,0.13979137,0.56163883
5505816276752,0.6589058,0.13979137,0.56163883
5505821006439,0.8018563,0.13168287,0.5895691
5505830465814,0.7739024,0.025991559,0.7635851
5505830465814,0.7739024,0.025991559,0.7635851
5505835195502,0.6869332,-0.09481686,0.77127457
5505858843939,0.81257474,0.48137367,1.0604029
5505863573627,0.46675313,0.5807534,1.1705513
5505873033054,-0.19672447,0.7792691,1.3846121
5505873033054,-0.19672447,0.7792691,1.3846121
5505877762741,-0.21712643,0.85423857,1.4981508
5505887222116,0.13550264,0.90285844,2.137701
5505887222116,0.13550264,0.90285844,2.137701
5505891951804,0.2910726,0.7657389,2.581706
5505896681491,0.45888412,0.58031964,3.0048647
5505906140866,0.6689057,0.18094647,3.6795263
5505906140866,0.6689057,0.18094647,3.6795263
5505910870554,0.6611664,0.22232574,3.819603
5505929789356,0.91031396,0.21981674,4.4801216
5505929789356,0.91031396,0.21981674,4.4801216
5505943978418,0.8257544,0.16849083,5.1260815
5505943978418,0.8257544,0.16849083,5.1260815
5505958167533,0.38893533,0.16396254,5.7757893
5505958167533,0.38893533,0.16396254,5.7757893
5505962897220,0.39720374,0.1440121,5.9018574
5505977086335,0.75308627,0.068829596,5.703026
5505977086335,0.75308627,0.068829596,5.703026
5505991275449,0.8857352,-0.41191816,4.818242
5505991275449,0.8857352,-0.41191816,4.818242
5505996005137,0.6263616,-0.74776345,4.5658836
5506005464512,-0.08569223,-1.1802906,4.154153
5506005464512,-0.08569223,-1.1802906,4.154153
5506010194252,0.19069117,-1.1601715,3.785205
5506024383366,0.03470224,-0.9366313,2.480997
5506024383366,0.03470224,-0.9366313,2.480997
5506029113054,-0.093355834,-0.94677085,2.1160088
5506038572481,0.16938281,-0.55522346,0.97105217
5506038572481,0.16938281,-0.55522346,0.97105217
5506043302168,-0.019102812,-0.49417436,0.42043972
5506048031856,-0.2927956,-0.46450913,-0.14668274
5506057491283,-0.82849693,-0.627253,-1.0828972
5506062220970,-1.0968667,-0.69404,-1.3909416
5506071680397,-1.3454137,-0.62560326,-1.9122972
5506071680397,-1.3454137,-0.62560326,-1.9122972
5506076410137,-1.3174508,-0.52830464,-2.1868515
5506081139824,-1.2414579,-0.57631713,-2.2302217
5506090599252,-1.3247888,-1.3723389,-2.0679274
5506095328939,-1.4075365,-1.7526929,-1.9443302
5506104788366,-1.4145309,-2.3886364,-1.630909
5506104788366,-1.4145309,-2.3886364,-1.630909
5506109518054,-1.362484,-2.5449276,-1.563365
5506114247793,-1.2492105,-2.5402431,-1.5510874
5506123707220,-1.1476359,-2.4329784,-1.7109909
5506123707220,-1.1476359,-2.4329784,-1.7109909
5506128436908,-1.0925484,-2.1923976,-1.9421139
5506137896335,-1.199894,-1.5808467,-2.7065544
5506142626074,-1.2888582,-1.2103105,-3.088822
5506147355762,-1.2671949,-0.85006857,-3.4502788
5506156815189,-0.95389366,-0.65082467,-3.90837
5506156815189,-0.95389366,-0.65082467,-3.90837
5506161544929,-0.7762717,-0.75081444,-4.084318
5506171004356,-0.7991588,-1.0014875,-4.2332296
5506171004356,-0.7991588,-1.0014875,-4.2332296
5506175734043,-0.9477648,-1.013236,-4.290349
5506180463783,-1.106329,-0.9562912,-4.3520436
5506189923210,-1.3094277,-0.8633342,-4.366232
5506189923210,-1.3094277,-0.8633342,-4.366232
5506194652949,-1.3726766,-0.8384124,-4.307426
5506208842116,-1.0088007,-0.379421,-3.798603
5506208842116,-1.0088007,-0.379421,-3.798603
5506213571804,-0.5003185,0.0565989,-3.4891634
5506223031231,-0.17927414,0.46883416,-2.6550574
5506223031231,-0.17927414,0.46883416,-2.6550574
5506227760970,-0.18608415,0.5037768,-2.0426035
5506237220397,-0.32182962,0.5755136,-1.5645285
5506241950137,-0.39784235,0.62194514,-1.5444918
5506246679877,-0.3716367,0.66572857,-1.8011603
5506256139304,-0.32859862,0.71507144,-2.3319936
5506256139304,-0.32859862,0.71507144,-2.3319936
5506260869043,-0.2985437,0.69123363,-2.644607
5506270328470,-0.18833452,0.7068052,-3.1091547
5506270328470,-0.18833452,0.7068052,-3.1091547
5506275058210,-0.07363093,0.7204952,-3.1161795
5506279787949,0.058805943,0.7829733,-3.0311832
5506289247377,0.23351443,0.87515163,-2.5323324
5506289247377,0.23351443,0.87515163,-2.5323324
5506293977116,0.26570237,0.87337494,-2.264658
5506308166283,0.49986076,0.7279484,-2.0601726
5506308166283,0.49986076,0.7279484,-2.0601726
5506312896022,0.62008893,0.6770663,-2.0354557
5506322355449,0.7087711,0.6486776,-1.9723673
5506322355449,0.7087711,0.6486776,-1.9723673
5506327085189,0.7132678,0.7013633,-1.8813281
5506341274408,0.9259572,0.8734963,-1.5018721
5506341274408,0.9259572,0.8734963,-1.5018721
5506346004095,0.6229397,0.7141595,-1.1231956
5506355463574,0.13994062,0.44408774,-0.7324114
5506355463574,0.13994062,0.44408774,-0.7324114
5506360193314,0.15086722,0.43360567,-0.8002777
5506364923054,0.09687543,0.47384858,-0.94227695
5506374382533,-0.15265024,0.52140737,-1.4243889
5506379112220,-0.13904226,0.5136142,-1.5895185
5506388571699,0.05107987,0.40884304,-1.8106036
5506388571699,0.05107987,0.40884304,-1.8106036
5506393301439,0.18418527,0.27817893,-1.9953356
5506398031179,0.27681673,0.16541147,-2.1521826
5506407490658,0.72575676,0.13705158,-2.805069
5506407490658,0.72575676,0.13705158,-2.805069
5506412220397,0.94910693,0.14589834,-2.885426
5506421679877,0.6231257,0.28086972,-3.086256
5506421679877,0.6231257,0.28086972,-3.086256
5506426409616,0.5499749,0.44359136,-3.1905723
5506445328574,-0.711992,1.087944,-3.9203467
5506454788002,0.1620853,1.770704,-4.1874185
5506454788002,0.1620853,1.770704,-4.1874185
5506459517741,-0.45684993,1.9143007,-4.399164
5506464247533,-1.298362,2.048777,-4.6431346
5506473707012,-1.3063228,2.5159202,-4.9535036
5506473707012,-1.3063228,2.5159202,-4.9535036
5506478436752,-1.4455652,2.7206137,-4.9620733
5506487896231,-1.2841659,2.5957918,-4.6768165
5506492625970,-1.1268299,2.3353379,-4.4098263
5506497355710,-0.85145354,1.953062,-4.0839167
5506506815189,0.48479545,0.9631994,-3.5376348
5506506815189,0.48479545,0.9631994,-3.5376348
5506511544929,0.8079939,0.6447284,-3.254706
5506521004408,0.7630366,0.6246772,-2.5485969
5506525734147,0.49356687,0.7361193,-2.3551106
5506525734147,0.49356687,0.7361193,-2.3551106
5506530463939,0.23019874,0.84957135,-2.3502755
5506539923418,0.08810508,0.93425846,-2.510663
5506539923418,0.08810508,0.93425846,-2.510663
5506544653158,0.04514265,0.89676976,-2.60643
5506554112637,-0.38044035,0.6515509,-2.7041974
5506554112637,-0.38044035,0.6515509,-2.7041974
5506558842377,-0.5027076,0.49236238,-2.602663
5506563572168,-0.5180913,0.31098294,-2.4790106
5506573031647,-0.3324222,-0.13457882,-2.0227427
5506577761387,0.02367878,-0.2913226,-1.8592868
5506582491127,0.1624667,-0.4836259,-1.8876076
5506587220918,0.017306507,-0.7062178,-2.0280213
5506591950658,-0.1818986,-1.0659255,-2.0675492
5506596680397,-0.17392972,-1.4832561,-1.9585533
5506606139929,-0.26772463,-2.047936,-0.80021477
5506610869668,-0.09832436,-2.1953387,-0.067139626
5506610869668,-0.09832436,-2.1953387,-0.067139626
5506625058939,-0.4448885,-2.8893905,1.4239721
5506629788679,-0.7391815,-3.1199179,1.89958
5506639248158,-1.1275879,-3.414744,3.2454023
5506639248158,-1.1275879,-3.414744,3.2454023
5506643977949,-1.0143906,-3.3263617,3.9357195
5506648707689,-1.2910912,-3.4437025,4.635049
5506653437429,-1.4863911,-3.551979,5.2310286
5506658167220,-1.6743854,-3.618064,5.759548
5506662896960,-1.8620881,-3.5755682,6.378106
5506677086231,-1.7519616,-2.5336843,7.473768
5506677086231,-1.7519616,-2.5336843,7.473768
5506681815970,-1.9769505,-2.4196036,7.652274
5506691275502,-2.1107311,-2.2200294,7.845649
5506696005241,-2.0257444,-2.1235716,7.9180183
5506710194564,-1.4195166,-1.4965054,8.472894
5506710194564,-1.4195166,-1.4965054,8.472894
5506714924304,-1.4462905,-1.5107453,8.239624
5506724383835,-1.3762624,-0.9739108,7.824148
5506724383835,-1.3762624,-0.9739108,7.824148
5506729113574,-1.1965106,-0.7126511,7.5439777
5506738573106,-0.807101,-0.1976228,6.6439466
5506738573106,-0.807101,-0.1976228,6.6439466
5506743302897,-0.7104502,0.04375264,5.9484577
5506748032637,-0.67772055,0.2157529,4.958742
5506752762429,-0.6358726,0.37428284,3.9595175
5506757492168,-0.6287666,0.44584292,3.0939512
5506762221960,-0.49458653,0.45722073,2.4070072
5506771681491,-0.19388705,0.53470474,1.5385027
5506771681491,-0.19388705,0.53470474,1.5385027
5506776411231,0.00435102,0.57278293,1.1557674
5506781141022,0.1376952,0.5304835,0.8646679
5506785870762,0.24787936,0.5301285,0.66982174
5506790600554,0.442739,0.4572644,0.36335754
5506795330293,0.42613804,0.3405978,0.057728767
5506804789824,0.36375168,0.0945988,-0.62279797
5506804789824,0.36375168,0.0945988,-0.62279797
5506814249356,0.35752752,-0.087348595,-1.1831751
5506814249356,0.35752752,-0.087348595,-1.1831751
5506818979147,0.43344676,-0.019834675,-1.279871
5506823708939,0.906206,-0.0070416303,-1.4885769
5506833168470,0.7689109,0.24315862,-1.8710446
5506833168470,0.7689109,0.24315862,-1.8710446
5506837898210,0.438022,0.14790572,-2.013711
5506847357741,0.23918773,-0.20085345,-2.0852337
5506861547064,0.3530205,-0.35687655,-1.941155
5506871006647,0.38360402,-0.3028045,-1.9721913
5506875736387,0.39937472,-0.26308084,-2.000217
5506880466179,0.2981676,-0.23245144,-1.9107985
5506885195970,0.18523557,-0.20856747,-1.8497853
5506889925710,0.11573827,-0.16760108,-1.7836494
5506894655502,0.10479811,-0.13099161,-1.6813602
5506899385293,0.10302481,-0.09864366,-1.5883722
5506904115033,0.06375408,-0.055964738,-1.456974
5506913574616,-0.017468035,0.018103987,-1.1178818
5506913574616,-0.017468035,0.018103987,-1.1178818
5506918304408,-0.052527487,0.045056015,-0.98690796
5506923034147,-0.073286235,0.09992981,-0.844347
5506927763939,-0.026822627,0.16593409,-0.6712427
5506937223522,-0.10928005,0.28355968,-0.04822731
5506937223522,-0.10928005,0.28355968,-0.04822731
5506946683054,-0.15420628,0.3940542,0.6602764
5506946683054,-0.15420628,0.3940542,0.6602764
5506951412845,-0.111692965,0.39607728,1.1233435
5506956142585,-0.1593265,0.30950752,1.6132841
5506960872377,-0.25921613,0.22237638,2.0417614
5506965602168,-0.034987032,0.2723916,2.4830494
5506970331960,0.028782785,0.32445636,2.9659786
5506979791543,-0.3462875,0.29673404,3.5685987
5506979791543,-0.3462875,0.29673404,3.5685987
5506989251074,-0.98778266,0.32532585,4.171646
5506989251074,-0.98778266,0.32532585,4.171646
5506993980866,-1.3813596,0.31571013,4.811221
5506998710658,-1.5728598,0.27440172,5.2257032
5507003440449,-1.5352011,0.28318185,5.5611973
5507008170189,-1.4440361,0.2945338,5.801138
5507012899981,-1.3966346,0.21563494,5.9386177
5507022359564,-1.6097214,-0.2596326,6.0532494
5507022359564,-1.6097214,-0.2596326,6.0532494
5507027089356,-1.5972829,-0.56475294,5.9976597
5507036548939,-1.2708411,-1.1146775,5.781951
5507036548939,-1.2708411,-1.1146775,5.781951
5507046008522,-0.624279,-1.3892788,5.522805
5507046008522,-0.624279,-1.3892788,5.522805
5507055468054,-0.01440835,-1.413811,4.741969
5507055468054,-0.01440835,-1.413811,4.741969
5507060197845,-0.019722044,-1.5200021,4.2469854
5507064927637,0.028249502,-1.6513091,3.8688326
5507069657429,0.17572081,-1.7694321,3.4974937
5507074387220,0.3713048,-1.8097655,3.130578
5507079117012,0.5326299,-1.791067,2.7680187
5507088576595,0.71369255,-1.7228332,2.1915703
5507088576595,0.71369255,-1.7228332,2.1915703
5507093306387,0.67953146,-1.6204164,2.0173635
5507098036179,0.6336465,-1.4895749,1.8632021
5507102765970,0.4907208,-1.3189256,1.7410069
5507112225554,0.19039696,-1.1472112,1.6094065
5507121685137,0.08372074,-1.1617539,1.7999487
5507121685137,0.08372074,-1.1617539,1.7999487
5507126414929,-0.07035214,-1.1726816,1.7526541
5507131144720,-0.007725954,-1.2526094,1.6282234
5507135874512,0.19615507,-1.3537546,1.5294466
5507140604304,0.33947337,-1.5546637,1.3940258
5507145334095,0.43007922,-1.7451484,1.1503496
5507150063887,0.5197145,-1.92265,0.80828285
5507154793679,0.55962896,-2.0702965,0.39200878
5507159523470,0.547603,-2.1188002,0.0807848
5507164253262,0.53003216,-2.0678477,-0.1998825
5507173712897,0.41246605,-1.8218002,-0.917531
5507173712897,0.41246605,-1.8218002,-0.917531
5507178442689,0.40581822,-1.6745253,-1.3935504
5507192632064,0.16080588,-1.8022594,-2.8266993
5507197361856,0.29638797,-1.6176498,-3.1827035
5507206821491,0.20658416,-1.3654029,-3.5479531
5507211551283,-0.008841336,-1.3384223,-3.605648
5507225740658,0.15027004,-1.1599915,-3.5300136
5507230470449,0.24248034,-1.0878887,-3.5567298
5507235200241,0.3213787,-0.9921365,-3.630948
5507239930085,0.41668028,-0.9426408,-3.6996818
5507249389668,0.22913772,-0.88669443,-3.7786775
5507249389668,0.22913772,-0.88669443,-3.7786775
5507254119460,0.1218645,-0.8721123,-3.7452402
5507258849304,0.10242987,-0.7723975,-3.7672286
5507263579095,0.09450394,-0.6859617,-3.7202005
5507273038679,0.17102706,-0.61541796,-3.5937676
5507273038679,0.17102706,-0.61541796,-3.5937676
5507277768470,0.17834133,-0.6097326,-3.4094462
5507282498314,0.15511644,-0.5864024,-3.2330084
5507287228106,0.0904876,-0.52131987,-3.114821
5507296687689,0.115468025,-0.33617163,-2.891841
5507296687689,0.115468025,-0.33617163,-2.891841
5507301417533,0.0130342245,-0.23215055,-2.8496623
5507306147324,-0.010646462,-0.12106466,-2.7399836
5507310877116,-0.020060122,-0.043630123,-2.6226077
5507315606908,-0.014924586,0.0094742775,-2.4926333
5507320336752,-0.011802614,0.09529972,-2.459772
5507329796335,0.12565744,0.13965034,-2.409564
5507329796335,0.12565744,0.13965034,-2.409564
5507339255970,0.12873697,0.09265947,-2.4078865
5507339255970,0.12873697,0.09265947,-2.4078865
5507343985762,0.13510942,0.107271194,-2.443512
5507348715606,0.11260581,0.12473726,-2.4315982
5507353445397,0.10441989,0.14500141,-2.391324
5507358175189,0.09613174,0.1918912,-2.3394246
5507362905033,0.04934889,0.24349403,-2.244635
5507367634824,-0.024248958,0.28760958,-2.1570096
5507372364668,-0.09139389,0.31926775,-2.133706
5507377094460,-0.09726018,0.34309578,-2.088511
5507381824252,-0.058658183,0.3711462,-2.0286946
5507386554095,-0.02328676,0.3701415,-1.9687276
5507396013731,0.082686305,0.38381577,-1.7767224
5507396013731,0.082686305,0.38381577,-1.7767224
5507405473314,0.10146707,0.4694991,-1.6482191
5507405473314,0.10146707,0.4694991,-1.6482191
5507414932949,0.11237317,0.5817013,-1.4781055
5507414932949,0.11237317,0.5817013,-1.4781055
5507419662793,0.21417695,0.62071514,-1.4050775
5507424392585,0.29543078,0.6622963,-1.2822824
5507429122377,0.38843656,0.6852398,-1.1483169
5507433852220,0.3598693,0.6969986,-1.1228175
5507438582012,0.2670104,0.63567495,-1.1387944
5507448041647,0.20010519,0.5491905,-1.2967706
5507448041647,0.20010519,0.5491905,-1.2967706
5507452771491,0.27064216,0.50460863,-1.3524275
5507457501283,0.34998995,0.52254343,-1.2913094
5507462231127,0.3663063,0.47372675,-1.2950144
5507471690762,0.23191786,0.30959845,-1.4028096
5507471690762,0.23191786,0.30959845,-1.4028096
5507481150397,0.18449748,0.23513699,-1.4994373
5507481150397,0.18449748,0.23513699,-1.4994373
5507490610033,0.15917158,0.2093482,-1.44694
5507490610033,0.15917158,0.2093482,-1.44694
5507495339824,0.098190665,0.18743277,-1.3703327
5507500069668,0.11345416,0.13587475,-1.2667623
5507504799512,0.03323424,0.12933683,-1.2465191
5507509529304,-0.024572074,0.21362114,-1.1736703
5507514259147,-0.035210013,0.25271797,-1.0533385
5507518988939,-0.015079975,0.21591711,-0.97178745
5507523718783,2.5570393E-5,0.13453054,-0.90275335
5507528448574,0.017177701,0.0875659,-0.83432865
5507533178418,0.055650175,0.053503036,-0.77132607
5507537908262,-0.00871253,0.0133605,-0.69472647
5507547367897,-0.15161473,0.106241226,-0.67768574
5507547367897,-0.15161473,0.106241226,-0.67768574
5507552097689,-0.16283184,0.12235165,-0.6776242
5507556827533,-0.072773755,0.14005995,-0.6117482
5507561557377,0.097344935,0.051960945,-0.5089245
5507566287168,0.06815696,-0.027135372,-0.426538
5507571017012,-0.014207482,-0.109366894,-0.29517555
5507580476647,0.0056211352,-0.09646702,0.11043644
5507580476647,0.0056211352,-0.09646702,0.11043644
5507585206491,0.007089436,-0.069411755,0.31116104
5507589936283,-0.023834765,-0.07132244,0.423254
5507594666127,-0.061455667,-0.07371569,0.45900917
5507599395970,-0.07309985,-0.0766387,0.46403313
5507604125814,-0.07614988,-0.13971233,0.43359566
5507608855606,-0.075761795,-0.18158531,0.47525692
5507613585449,-0.06753808,-0.21651316,0.5506296
5507618315293,-0.0039346814,-0.23020887,0.62863827
5507623045085,0.028980315,-0.23450947,0.6972494
5507627774929,0.017407715,-0.22447777,0.8017235
5507632504772,0.0075861216,-0.21676254,0.9036598
5507637234616,0.0025718808,-0.15622711,0.9479561
5507641964408,0.017116904,-0.1409235,0.9633579
5507646694252,0.0059940815,-0.101424694,0.9689646
5507656153887,-0.0049892664,-0.060002804,0.84836197
5507660883731,-0.029316783,-0.04898882,0.7918806
5507665613574,-0.08982998,-0.06495333,0.7884979
5507689262741,-0.11532289,0.09115219,0.75763226
5507698722429,0.06618416,0.15263414,0.54378223
5507698722429,0.06618416,0.15263414,0.54378223
5507708182064,0.119994044,0.15241909,0.154459
5507708182064,0.119994044,0.15241909,0.154459
5507712911908,0.10389,0.16176558,-0.06850815
5507727101387,0.07226586,0.19754839,-0.59993076
5507727101387,0.07226586,0.19754839,-0.59993076
5507727101387,0.07226586,0.19754839,-0.59993076
5507731831231,0.08175331,0.24505138,-0.7262039
5507755480449,0.13423622,0.32906342,-1.597796
5507760210293,0.13913018,0.32214403,-1.8940973
5507764940085,0.091524065,0.30932093,-2.1834083
5507779129616,0.22162664,0.33333874,-2.9612732
5507783859460,0.28077263,0.36639786,-3.174902
5507793319147,0.40301627,0.4013238,-3.660643
5507798048991,0.4698897,0.41050768,-3.93506
5507807508679,0.6534353,0.4477744,-4.3649073
5507812238522,0.68850577,0.53791857,-4.5466948
5507826428054,0.74521834,0.6799345,-5.0241623
5507831157897,0.765732,0.749526,-5.26682
5507845347377,0.8171678,0.7713752,-5.8138313
5507850077220,0.73761463,0.6916537,-5.7939477
5507864266804,0.35866803,0.64572644,-5.1372676
5507878456335,0.072452664,0.6030381,-4.5130253
5507883186179,-0.1439544,0.4633708,-4.2712173
5507897375710,-0.33329904,0.12199831,-3.3136272
5507911565241,-0.18031675,-0.72307897,-2.354024
5507916295085,0.058189273,-0.8298266,-2.1443243
5507925754772,-0.14209193,-1.2558651,-1.6787105
5507930484616,-0.1223467,-1.5957851,-1.425683
5507944674199,0.5718019,-2.1061177,-0.575428
5507949404043,0.6589219,-2.2017894,-0.25424767
5507958863731,0.6143009,-2.2893467,0.29323673
5507963593574,0.3238991,-2.238275,0.5102539
5507982513002,-0.71732694,-2.1458697,2.021286
5507991972689,-0.41311857,-2.2536361,3.3679771
5507996702533,-0.32890564,-2.3828492,4.093911
5508010892116,-0.72856927,-2.1599474,4.725211
5508015621960,-0.89558667,-1.8323102,4.6548376
5508025081647,-0.95231724,-1.430954,4.622756
5508029811543,-0.70274425,-1.3196203,4.6783104
5508034541387,-0.68469906,-1.2235463,4.765237
5508048730918,-0.65259403,-1.1079772,5.0276976
5508058190658,-0.14466572,-0.93418515,5.2584505
5508062920502,0.16995403,-0.72805405,5.5603466
5508067650397,-0.13929582,-0.8182267,6.0061893
5508081839929,0.041114897,-0.35296038,7.0710325
5508096029512,-0.2576104,0.4701208,8.154403
5508110219095,-0.9216669,0.8192858,7.16735
5508114948939,-1.2256773,0.7273736,6.55824
5508129138522,-1.3692303,0.33210993,4.1823072
5508133868418,-1.1650805,0.20065248,3.4884043
5508143328106,-0.5999688,-0.052366257,2.5519629
5508148058002,-0.37530002,-0.16615498,2.1749506
5508157517741,0.10742821,-0.46633363,1.2917356
5508162247585,0.29793912,-0.60969,0.9023771
5508166977429,0.34273404,-0.6845123,0.55634403
5508176437168,0.29237542,-0.88975847,-0.037510872
5508181167012,0.35970864,-0.9195258,-0.23300648
5508195356647,0.73102987,-0.7473906,0.041362762
5508200086491,0.7091246,-0.8094881,0.050016403
5508209546231,0.55911314,-0.95222104,0.019366264
5508214276074,0.52484345,-0.91674435,-0.0747633
5508228465658,0.31822687,-0.849729,-0.47669792
5508233195554,0.0487234,-0.88311654,-0.40897083
5508242655293,-0.009367898,-0.8998832,-0.023658752
5508247385137,0.16156968,-0.830974,0.14564323
5508261574772,0.51995057,-0.7597313,0.051680565
5508266304616,0.49467197,-0.71569216,-0.12570763
5508275764356,0.5062658,-0.48324537,-0.33940315
5508280494252,0.5291428,-0.3239143,-0.41873074
5508294683835,0.68494785,-0.63231075,-0.82386875
5508299413731,0.76630986,-0.7015587,-0.95742416
5508313603314,1.2370985,-0.38576484,-0.7002344
5508318333210,1.2281809,-0.29566813,-0.54788494
5508327792949,1.0031316,-0.057453156,-0.40023994
5508332522793,0.8242628,0.1296165,-0.4741764
5508341982585,0.7651071,0.56489396,-0.53506947
5508346712429,0.691012,0.71773267,-0.5866356
5508360902064,0.10774462,0.79325724,-0.83096313
5508365631908,0.07304266,0.83230853,-0.8249788
5508375091699,0.22630575,0.8485348,-0.71918297
5508379821543,0.31659186,0.73316026,-0.68661976
5508394011179,0.4097567,0.27092838,-0.97280884
5508398741074,0.49055487,0.23810744,-1.1023254
5508408200814,0.5148633,0.20609832,-1.0178204
5508412930658,0.5614594,0.13393617,-0.9255638
5508417660554,0.5256467,-0.041412115,-0.8938284
5508427120293,0.71950364,-0.18156695,-0.8296747
5508427120293,0.71950364,-0.18156695,-0.8296747
5508431850189,0.8898799,-0.40992808,-0.7898903
5508441309929,1.2016076,-1.0682268,-0.87383556
5508446039824,1.2596722,-1.4173048,-0.7009754
5508450769720,1.2136787,-1.575305,-0.57826996
5508464959356,-0.13956591,-0.9531026,-0.27220154
5508479148991,-0.54546726,-0.103633165,-0.8769903
5508483878887,-1.0112035,0.25441527,-1.2847686
5508493338627,-1.9296589,0.58183575,-2.0941863
5508498068522,-1.8208672,0.39818096,-2.4070392
5508502798366,-1.5594254,0.082760334,-2.554803
5508507528262,-1.2282138,-0.09189844,-2.6213555
5508512258158,-0.8538936,5.7554245E-4,-2.7740965
5508516988054,-0.73097324,0.10166931,-2.750133
5508521717897,-0.6992752,0.06554222,-2.6406703
5508526447793,-0.750846,-0.23629308,-2.5274444
5508531177689,-0.927868,-0.62597704,-2.5327816
5508535907533,-0.8822558,-0.9162607,-2.723813
5508540637429,-0.63616157,-1.0136421,-2.9641972
5508545367324,-0.48115873,-1.0926645,-3.0937066
5508550097220,-0.20399554,-1.1867177,-2.835256
5508554827116,0.3037273,-1.0119889,-2.7265935
5508559556960,0.73380554,-0.5507777,-2.272246
5508564286856,1.2317319,-0.08450675,-1.7611928
5508569016752,1.8627927,0.24898505,-1.4269695
5508573746647,2.6332211,0.50336194,-1.7272997
5508578476543,3.5769176,0.8350291,-2.170569
5508583206387,4.360898,1.0709078,-2.2064762
5508587936283,5.0515494,1.1599765,-2.0167742
5508592666179,5.5716276,1.122925,-1.7280202
5508597396074,5.9692483,1.0567372,-1.0340548
5508606855814,6.3305407,0.46581316,0.07453823
5508606855814,6.3305407,0.46581316,0.07453823
5508616315606,5.9363666,-0.1708262,0.9501486
5508616315606,5.9363666,-0.1708262,0.9501486
5508625775397,5.310695,-0.13089108,1.783432
5508644694929,4.218473,0.06909323,0.90410614
5508649424824,3.8749208,-0.13676596,1.8252068
5508663614512,3.3272934,-0.19845891,3.3940525
5508663614512,3.3272934,-0.19845891,3.3940525
5508668344408,3.1324866,-0.29107285,3.9779186
5508682534043,2.472362,-0.85715055,4.759712
5508696723731,1.8790526,-0.5313816,5.246773
5508701453627,1.6796327,-0.38437223,5.659568
5508710913418,1.4789469,-0.60069346,6.4687834
5508715643314,1.3224247,-0.8453522,6.7347
5508729833002,0.9782468,-0.060714006,8.055164
5508729833002,0.9782468,-0.060714006,8.055164
5508734562897,0.83627135,0.4550655,9.041114
5508744022637,1.0641291,1.1668153,11.704386
5508748752533,1.3791016,1.5278263,13.083281
5508772402012,2.343319,2.318809,15.33671
5508796051491,1.325848,0.8676162,11.6505165
5508805511283,0.40485585,-0.32702827,9.765038
5508810241179,0.017172933,-0.7339363,8.706634
5508819700970,-0.56240845,-1.1802509,6.57292
5508824430866,-0.88592166,-1.4798474,5.6293745
5508833890710,-1.6174406,-2.2394235,3.7402954
5508833890710,-1.6174406,-2.2394235,3.7402954
5508838620606,-2.0115411,-2.5643566,2.8305817
5508843350502,-2.39389,-2.766725,1.8040638
5508848080397,-2.773676,-2.8733482,0.8356371
5508857540189,-3.4113688,-3.1021507,-1.0938196
5508857540189,-3.4113688,-3.1021507,-1.0938196
5508862270085,-3.7425346,-3.2814918,-2.288889
5508866999981,-4.1065717,-3.4575706,-3.423421
5508871729877,-4.458605,-3.6146336,-4.445667
5508876459772,-4.752688,-3.763244,-5.1391344
5508881189668,-4.8353114,-3.735284,-5.813092
5508885919564,-4.7320185,-3.6932058,-6.3029585
5508890649460,-4.5113153,-3.7277458,-6.6354256
5508900109304,-4.175351,-3.8782334,-7.0897465
5508900109304,-4.175351,-3.8782334,-7.0897465
5508904839199,-4.127155,-4.2275853,-7.2027893
5508909569095,-3.9570677,-4.6542983,-7.3440313
5508914298991,-3.700525,-4.990591,-7.623699
5508919028887,-3.5219734,-4.994992,-7.8817225
5508923758783,-3.405932,-4.7228427,-8.049005
5508928488679,-3.306044,-4.3679757,-8.190387
5508933218627,-3.1743348,-4.004654,-8.384786
5508937948522,-3.0514152,-3.6331224,-8.498195
5508942678418,-2.9178362,-3.3541963,-8.473149
5508947408314,-2.7971463,-3.1372159,-8.3
5508956868106,-2.667821,-3.0011683,-7.7049913
5508956868106,-2.667821,-3.0011683,-7.7049913
5508966327949,-2.7092721,-3.01248,-7.07734
5508975787741,-2.8250203,-2.882194,-6.6016026
5508980517637,-2.8211913,-2.8620758,-6.488646
5508985247533,-2.8328552,-2.9322581,-6.4458127
5508994707377,-2.7549605,-3.046558,-6.6001463
5508999437272,-2.823565,-3.076908,-6.7585526
5509008897064,-3.3456507,-3.2717733,-7.032939
5509013627012,-3.6386576,-3.4806337,-7.1639376
5509018356908,-3.896812,-3.6857944,-7.343923
5509027816699,-4.154586,-3.8944583,-7.706515
5509032546595,-4.2596617,-3.9734974,-7.899373
5509046736335,-4.3348913,-4.1031756,-8.272465
5509065655970,-4.3760543,-3.5227356,-8.558141
5509075115814,-4.31896,-3.353163,-8.954869
5509079845710,-4.109077,-3.3490784,-9.207292
5509084575606,-3.8687487,-3.3894439,-9.400405
5509098765345,-3.6730587,-3.0686688,-9.810631
5509108225189,-3.5267322,-2.4469693,-10.139818
5509112955085,-3.4691036,-2.1417985,-10.325367
5509117684981,-3.414679,-1.8897722,-10.388619
5509127144824,-3.6384103,-2.1666799,-9.973717
5509131874720,-3.7176552,-2.3395796,-9.754816
5509146064460,-3.551356,-1.9393891,-9.077304
5509150794408,-3.5343857,-1.8451228,-8.7301655
5509160254199,-3.302464,-1.496943,-8.271497
5509164984147,-3.0805154,-1.2095029,-8.202169
5509169714043,-2.8368084,-0.92993474,-8.210189
5509179173887,-2.3275726,-0.5019305,-8.507281
5509183903783,-2.0967698,-0.3135879,-8.558347
5509193363627,-1.8159626,-0.28780198,-8.014139
5509198093522,-1.7422298,-0.34500265,-7.6995234
5509202823470,-1.7647277,-0.4186089,-7.5947022
5509217013210,-1.4789717,-0.34408045,-8.44469
5509226473054,-1.1922301,-0.078662395,-8.694435
5509231202949,-1.0743973,0.06374681,-8.503421
5509235932897,-1.024148,0.13244307,-8.0791025
5509250122637,-1.1768639,-1.2490585,-5.506698
5509259582481,-1.3504701,-3.231134,-4.0174594
5509264312377,-1.2651845,-3.7023664,-3.6878676
5509269042324,-0.74613416,-3.5755742,-3.5350823
5509278502168,0.63462615,-2.1856742,-3.2881355
5509283232064,1.9157405,-2.151142,-2.6319656
5509292691908,4.1891584,-2.4904025,-0.4829588
5509297421804,5.414402,-2.577304,0.79611015
5509302151752,6.559314,-2.7035844,2.081769
5509316341491,8.345203,-5.072107,6.856722
5509330531283,11.808773,-8.565574,12.829714
5509330531283,11.808773,-8.565574,12.829714
5509335261179,13.956853,-8.262673,16.868362
5509349450970,16.45225,-0.23933685,33.347496
5509354180866,13.961516,0.21816921,38.054806
5509358910814,13.465568,0.3531468,49.80857
5509377830502,5.285922,-2.2566385,41.03564
5509382560449,5.5253015,-2.2835674,32.1381
5509401480137,2.999854,-1.3284868,6.381834
5509406210085,2.2320347,-1.3733283,3.8020372
5509410939981,1.8446627,-1.4070945,2.1116447
5509425129772,1.8258843,-1.9130759,-1.0558572
5509429859668,2.0135932,-1.9342122,-2.2426186
5509434589616,2.243353,-1.8466605,-3.298027
5509448779408,2.1135306,-0.9657951,-4.971283
5509453509304,1.8544116,-0.90207356,-5.0899253
5509462969199,1.5715551,-1.383224,-4.9903684
5509467699095,1.5860376,-1.5576351,-4.882745
5509481888887,1.3670607,-2.3961155,-4.7364407
5509481888887,1.3670607,-2.3961155,-4.7364407
5509486618835,0.26513004,-2.4813387,-6.0177746
5509496078679,0.43434906,-2.181666,-4.7848196
5509500808627,0.7936485,-1.8282156,-4.526073
5509514998418,0.61577773,-0.06868428,-4.329851
5509519728314,0.46162152,0.2712986,-4.0982265
5509529188210,0.3833723,0.19646749,-3.6500473
5509529188210,0.3833723,0.19646749,-3.6500473
5509533918158,0.26555896,-0.004561901,-3.502874
5509548107949,-0.609576,-0.3048028,-3.0321388
5509552837845,-1.0430567,-0.308942,-2.802732
5509562297741,-2.0167534,-0.40513512,-2.0609665
5509567027689,-2.3610077,-0.4179899,-1.6111693
5509567027689,-2.3610077,-0.4179899,-1.6111693
5509581217481,-3.0603843,-0.44263917,-0.511775
5509581217481,-3.0603843,-0.44263917,-0.511775
5509585947377,-3.230059,-0.34318972,-0.27782345
5509595407272,-3.3441112,0.019551396,0.200037
5509595407272,-3.3441112,0.019551396,0.200037
5509600137220,-3.040113,0.15824065,0.35383987
5509609597064,-2.2157514,0.4679771,0.20959282
5509609597064,-2.2157514,0.4679771,0.20959282
5509614327012,-1.9173789,0.5830581,-0.014203072
5509619056960,-1.6651646,0.6588314,-0.23756123
5509628516804,-1.2031815,0.6824349,-0.40989113
5509637976699,-0.7573798,0.49152753,-0.36167526
5509637976699,-0.7573798,0.49152753,-0.36167526
5509642706595,-0.6798723,0.32763645,-0.26837635
5509656896439,0.037676573,0.17104214,0.19527054
5509666356283,0.6294472,0.42179486,0.6009836
5509675816179,1.3117535,0.42592385,1.0204821
5509675816179,1.3117535,0.42592385,1.0204821
5509680546127,1.6665115,0.40466106,1.1500673
5509685276074,1.9082019,0.4204965,1.2442627
5509699465866,2.1521616,0.41452414,1.7344961
5509708925762,1.9088469,0.33956978,1.9967098
5509708925762,1.9088469,0.33956978,1.9967098
5509718385606,1.5823014,0.19663417,1.9106827
5509718385606,1.5823014,0.19663417,1.9106827
5509727845502,1.253897,-0.07310368,1.6544743
5509727845502,1.253897,-0.07310368,1.6544743
5509732575449,1.0457082,-0.16609287,1.5774593
5509742035345,0.63359547,-0.26194417,1.1728363
5509742035345,0.63359547,-0.26194417,1.1728363
5509746765293,0.41858006,-0.22519487,0.8713808
5509751495189,0.23358703,-0.14138557,0.51980495
5509760955085,-0.15055203,-0.12134032,-0.14191723
5509760955085,-0.15055203,-0.12134032,-0.14191723
5509765685033,-0.38201904,-0.20305108,-0.47559166
5509770414981,-0.6215353,-0.22831024,-0.7654085
5509775144929,-0.81435585,-0.24487188,-0.9205427
5509784604824,-0.9195173,-0.21859471,-1.0838356
5509798794616,-0.60260415,0.06591186,-1.2424488
5509803524564,-0.48683262,0.12778991,-1.20685
5509812984460,-0.28231978,0.1970214,-0.88329315
5509817714408,-0.24589896,0.19402388,-0.67447376
5509827174304,-0.17551708,0.13718298,-0.37543964
5509831904252,-0.16108203,0.13767603,-0.33513355
5509836634199,-0.14653039,0.16104108,-0.33231258
5509846094095,-0.12653732,0.14993078,-0.36252785
5509850824043,-0.12763953,0.11613312,-0.3408079
5509865013887,0.058335304,-0.025878966,0.16420746
5509869743835,0.18816519,-0.038270295,0.41161823
5509879203679,0.28931785,0.018889576,0.5688267
5509883933627,0.22211027,-0.0027892292,0.52686596
5509898123470,0.1438992,-0.02748555,0.20609283
5509907583366,0.10099387,0.026746154,-0.04096508
5509917043262,-0.023513079,0.058348656,-0.089102745
5509926503158,-0.094347954,0.12099999,-0.054021835
5509931233106,-0.049856663,0.16251856,0.029968262
5509935963054,0.01979351,0.17388412,0.14921856
5509940693054,0.0526855,0.17863947,0.29884624
5509945423002,0.14210653,0.1953128,0.3832407
5509950152949,0.18496323,0.19239262,0.43365955
5509959612845,0.12761068,0.19364423,0.46424675
5509969072741,0.06220007,0.095710635,0.25579834
5509973802689,0.06681156,0.072144,0.16014862
5509978532637,0.14080858,0.05302784,0.016835213
5509987992533,0.45466137,0.16962638,-0.22105885
5509992722481,0.48575234,0.18838492,-0.3393469
5510006912324,0.18426347,0.08558771,-0.34934616
5510021102220,-0.080985785,0.041076124,0.00666523
5510025832168,-0.07545042,0.10020831,0.029813766
5510040022012,0.03696847,0.070495814,0.016992569
5510040022012,0.03696847,0.070495814,0.016992569
5510044751960,0.04704714,0.02197507,0.13964272
5510049481908,0.12038112,-0.020151705,0.27690697
5510054211856,0.18789148,-0.013088554,0.39044476
5510063671804,0.054046154,-0.012254417,0.65585136
5510068401752,-0.016584635,-0.05157751,0.86218166
5510077861647,-0.050537586,-0.048787445,1.198102
5510082591595,-0.049459934,-0.0040997863,1.2464237
5510087321543,-8.8334084E-4,0.042304397,1.272604
5510096781439,-0.008506298,0.020898402,1.3402281
5510101511387,-0.10777044,0.022496045,1.4462223
5510110971335,-0.36628795,0.036738276,1.8138046
5510115701283,-0.48194504,0.13534218,1.9508705
5510120431231,-0.57584834,0.26184893,1.9892054
5510129891179,-0.7291676,0.30837786,1.8520927
5510134621127,-0.81963706,0.20955533,1.6847
5510144081022,-0.800799,0.058323562,1.4960432
5510148810970,-0.68673277,0.016112804,1.6082993
5510153540970,-0.64967334,0.088970244,1.8018465
5510163000866,-1.0662296,0.23430783,2.2045994
5510167730814,-1.420464,0.16381627,2.430891
5510181920710,-2.2517385,0.25056183,3.9891243
5510186650658,-2.410717,0.49548602,4.3105545
5510196110554,-2.3538766,0.9157839,4.7562017
5510200840502,-2.1747453,1.1336131,5.0193834
5510215030397,-1.4878654,1.6576221,5.625305
5510219760345,-1.2806306,1.6939907,5.632139
5510229220293,-1.224493,1.7297207,5.63748
5510233950241,-1.2287874,1.8245798,5.977659
5510252870085,-0.024586797,2.9087691,7.606633
5510262330033,0.20575416,3.0449922,7.796479
5510267059981,0.28860462,2.9279428,7.8214617
5510285979824,-0.582274,2.0558784,7.4554043
5510295439772,-1.3861812,1.5853541,7.3838787
5510300169720,-1.7234095,1.3450241,7.6133366
5510314359616,-2.0707927,1.0591944,7.4523935
5510319089564,-1.7510813,1.0683312,7.287902
5510328549512,-0.98351455,1.0014702,7.2903023
5510333279460,-0.5920191,0.9717777,7.3874702
5510338009408,-0.20230618,0.92698646,7.4944687
5510347469356,0.5107002,0.5846667,7.4616423
5510352199304,0.87780535,0.28881538,7.207818
5510361659252,2.2123663,-0.146245,6.532773
5510366389199,3.1255553,-0.1729374,6.472931
5510380579147,5.8613358,-0.3328588,7.418565
5510385309095,6.3937945,-0.54396224,8.13098
5510399498991,5.7940645,-0.55521727,10.013925
5510399498991,5.7940645,-0.55521727,10.013925
5510404228939,4.9435096,-0.6892309,10.265186
5510413688887,2.901178,-1.8727938,9.952435
5510418418835,2.06214,-2.6999273,9.431207
5510427878783,0.97442794,-3.704154,7.614341
5510432608783,0.64155686,-3.947289,6.503396
5510437338731,0.3504951,-4.174694,5.307811
5510451528627,0.40957654,-4.333403,1.4899483
5510460988574,0.92136383,-4.3555875,-0.54385185
5510465718522,1.0717384,-4.2987404,-1.3613987
5510470448522,1.219685,-4.2443976,-2.1259985
5510484638418,1.6659536,-4.1800256,-3.4532146
5510484638418,1.6659536,-4.1800256,-3.4532146
5510484638418,1.6659536,-4.1800256,-3.4532146
5510498828314,1.8721557,-3.5362973,-2.8754435
5510503558314,1.6726651,-3.2739472,-2.3297172
5510513018262,1.2110666,-3.0024557,-1.7311411
5510517748210,0.9937215,-2.8450687,-1.804626
5510531938106,0.07455838,-3.1848254,-2.6366405
5510536668106,-0.28183156,-3.4547346,-3.1794095
5510546128054,-0.8582243,-3.7787051,-4.4459786
5510546128054,-0.8582243,-3.7787051,-4.4459786
5510550858002,-0.98873997,-3.865306,-5.0456686
5510565047949,-1.0604708,-4.258197,-6.6951327
5510574507845,-0.82702076,-4.50435,-7.6712613
5510579237845,-0.5402113,-4.463448,-8.119943
5510588697793,0.48406202,-3.9991426,-8.71157
5510598157741,1.6489971,-3.3220825,-9.187677
5510598157741,1.6489971,-3.3220825,-9.187677
5510602887689,2.0244853,-3.1299112,-9.281842
5510612347637,2.1303668,-3.0569975,-9.061611
5510612347637,2.1303668,-3.0569975,-9.061611
5510617077637,2.046008,-2.9212656,-8.85661
5510631267533,1.2536068,-2.8424864,-7.3278575
5510631267533,1.2536068,-2.8424864,-7.3278575
5510635997533,0.9473753,-2.851299,-6.6193275
5510645457481,0.4271568,-2.7884984,-5.4012923
5510650187429,0.21968055,-2.6559644,-4.936683
5510654917429,-0.013066173,-2.5212564,-4.537095
5510664377377,-0.4898972,-2.474777,-3.986094
5510669107377,-0.5830308,-2.5100331,-3.9185128
5510678567324,-0.5078628,-2.4765239,-3.7713714
5510688027272,-0.18828952,-2.1733093,-3.7927527
5510697487220,-0.48667252,-2.196551,-4.3022738
5510702217168,-0.19829595,-2.3376439,-4.050472
5510711677116,0.26214552,-2.2312884,-3.702344
5510716407116,0.56478834,-2.1377585,-3.682612
5510721137116,0.7904041,-2.0443604,-3.5407066
5510725867064,0.77747107,-1.8267107,-3.706767
5510730597064,0.5434936,-1.6542699,-3.8146372
5510735327012,0.1621629,-1.4814677,-3.7113647
5510740057012,-0.27896118,-1.387295,-3.4332347
5510744786960,-0.7255652,-1.3838737,-3.1263957
5510749516960,-1.0986681,-1.4209545,-3.0919762
5510754246960,-1.4083936,-1.524571,-3.1121626
5510758976908,-1.7271224,-1.6750879,-3.2395682
5510763706908,-2.0814922,-1.852468,-3.4362512
5510768436856,-2.4570773,-2.0820699,-3.6094723
5510777896804,-2.9578218,-2.5957298,-3.952835
5510777896804,-2.9578218,-2.5957298,-3.952835
5510782626804,-2.9669552,-2.6465437,-4.1219196
5510787356804,-2.8470364,-2.5485427,-4.296301
5510792086752,-2.661921,-2.292177,-4.5073824
5510796816752,-2.4347205,-2.0090659,-4.6764975
5510806276699,-1.9981782,-1.7133753,-4.849328
5510811006699,-1.8915492,-1.7004738,-4.903493
5510820466647,-1.7996796,-1.806736,-5.1463118
5510820466647,-1.7996796,-1.806736,-5.1463118
5510825196647,-1.8549939,-1.8623631,-5.350238
5510829926595,-1.893126,-1.9211297,-5.5245876
5510839386543,-2.0555482,-2.0537124,-5.9431334
5510844116543,-2.0956569,-2.082103,-6.1892376
5510858306491,-2.220671,-2.1875858,-6.8402634
5510858306491,-2.220671,-2.1875858,-6.8402634
5510863036491,-2.218483,-2.1361382,-7.0104976
5510872496439,-2.0944507,-2.0872376,-7.1692705
5510872496439,-2.0944507,-2.0872376,-7.1692705
5510877226439,-2.1151505,-2.1964993,-7.242376
5510891416387,-2.2565932,-2.6641176,-7.695293
5510891416387,-2.2565932,-2.6641176,-7.695293
5510891416387,-2.2565932,-2.6641176,-7.695293
5510896146335,-2.340815,-2.495623,-7.7631645
5510910336283,-2.2498672,-2.0022454,-8.03835
5510910336283,-2.2498672,-2.0022454,-8.03835
5510938716179,-2.5269716,-1.4377542,-7.2419834
5510952906127,-1.7880799,-1.2361193,-6.355739
5510962366127,-1.4467038,-1.2774429,-6.000542
5510962366127,-1.4467038,-1.2774429,-6.000542
5510967096127,-1.391526,-1.3357682,-5.956682
5510971826074,-1.3061346,-1.3267965,-5.891436
5510976556074,-1.1699802,-1.3105454,-5.7876225
5510986016022,-1.0332563,-1.2267504,-5.5289164
5510986016022,-1.0332563,-1.2267504,-5.5289164
5510995476022,-0.8718847,-1.1773124,-5.0877614
5510995476022,-0.8718847,-1.1773124,-5.0877614
5511000205970,-0.7754843,-1.1949759,-4.88081
5511004935970,-0.6482245,-1.2187285,-4.699053
5511014395970,-0.59451485,-1.1859221,-4.5239983
5511019125918,-0.65461767,-1.1705289,-4.482132
5511028585918,-1.0028874,-1.0532227,-4.570496
5511033315866,-1.1163211,-0.96044683,-4.6389313
5511038045866,-1.1833917,-0.83327055,-4.6961517
5511042775866,-1.2133083,-0.69286346,-4.78798
5511047505866,-1.1649444,-0.5963383,-4.800016
5511052235866,-1.083099,-0.572155,-4.8235083
5511056965814,-0.9835999,-0.55580044,-4.8013115
5511061695814,-0.92050195,-0.57811594,-4.8056316
5511066425814,-0.95803523,-0.60280704,-4.7937856
5511071155762,-1.075184,-0.71287537,-4.8473063
5511075885762,-1.167329,-0.8740611,-4.8182154
5511080615762,-1.2056395,-1.0403824,-4.6257553
5511085345762,-1.1891716,-1.1184654,-4.3135533
5511090075762,-1.1308117,-1.1253066,-3.9729216
5511094805710,-1.0149127,-1.0495002,-3.6231105
5511104265710,-0.4913454,-0.8320465,-3.117845
5511108995710,-0.1184032,-0.70126295,-3.0358238
5511113725658,0.27600098,-0.5764179,-3.1010704
5511118455658,0.619776,-0.49365282,-3.25805
5511127915658,0.91081643,-0.54951143,-3.6335373
5511127915658,0.91081643,-0.54951143,-3.6335373
5511132645658,0.9045987,-0.4627552,-3.9496486
5511137375606,0.79993725,-0.38818455,-4.3471174
5511142105606,0.6121576,-0.46348715,-4.725524
5511146835606,0.35161912,-0.6539712,-5.03722
5511151565606,0.10515213,-0.8701906,-5.380331
5511156295606,-0.15775204,-1.101687,-5.6807914
5511161025554,-0.40045154,-1.4052787,-5.9338064
5511170485554,-0.80246854,-1.7425945,-6.0873103
5511179945554,-1.1390368,-1.5725205,-5.831335
5511184675502,-1.3630865,-1.4057722,-5.5719876
5511189405502,-1.6334324,-1.294256,-5.256947
5511198865502,-2.08398,-1.198803,-4.490402
5511203595502,-2.1211972,-1.24331,-4.047414
5511217785449,-0.25379086,-2.0628824,-3.0432396
5511222515449,0.8152839,-2.2531962,-3.079597
5511227245449,1.8670225,-2.3151958,-3.3140025
5511231975449,2.7907767,-2.2640405,-3.635046
5511236705397,3.461218,-2.217548,-3.9170117
5511250895397,3.5293136,-2.482989,-4.3184667
5511255625397,2.9498973,-2.8613672,-4.1756997
5511265085345,1.1326392,-3.5913324,-3.437131
5511269815345,0.08288312,-3.9821613,-2.8494453
5511284005345,-3.5848908,-5.0604467,0.06638241
5511288735345,-4.5886574,-5.3185587,1.3012514
5511298195293,-5.956999,-5.5983667,3.7741556
5511302925293,-6.243367,-5.6495285,4.7686214
5511317115293,-6.1689067,-6.1309385,6.4442472
5511321845293,-5.7930427,-6.150431,6.5111294
5511336035293,-4.0618386,-5.7850447,6.4432316
5511350225241,-1.5142963,-5.230199,5.2277603
5511354955241,-0.9320832,-5.4101095,5.0251694
5511369145241,0.461411,-5.9911966,4.1786833
5511373875241,1.0060979,-6.022602,4.4685755
5511378605241,1.4618487,-5.9417,5.1944427
5511392795189,4.09451,-4.5548744,8.020792
5511397525189,5.032169,-4.1613746,9.107482
5511406985189,6.6003847,-3.3262374,10.734255
5511411715189,7.666857,-2.9606056,11.341786
5511416445189,10.203725,-1.7867221,15.347726
5511421175189,11.985908,-1.2933519,16.868214
5511435365189,26.717209,5.429652,42.597046
5511440095137,27.736732,6.402256,43.042442
5511444825137,27.051651,5.3799353,48.165825
5511463745137,2.6961603,-4.1061387,19.278137
5511468475137,-0.41670346,-2.222174,12.690665
5511482665137,-4.123708,2.7796474,-1.8285017
5511487395137,-4.8673806,3.606625,-3.3594198
5511501585137,-5.957412,1.9459974,-4.275795
5511515775085,-3.6648054,0.24713624,-3.0721564
5511520505137,-3.0742614,0.022457004,-2.9464526
5511534695085,-3.0994406,-0.5073892,-2.508421
5511548885085,-2.213375,-2.3321424,-4.604182
5511553615085,0.20269513,-2.2120616,-4.300259
5511567805085,2.6413448,0.50933826,-4.6688633
5511572535085,3.2406733,0.89398,-4.0876694
5511581995085,4.338941,0.9273312,-2.6173882
5511586725085,4.607782,0.26548815,-1.6319804
5511591455085,4.685936,-0.8581164,-1.607007
5511596185085,4.564767,-2.1288633,-2.850936
5511605645085,3.4678912,-3.001821,-3.2482204
5511610375085,1.8448277,-2.3055081,-2.243195
5511619835085,-1.7745535,-0.68161654,1.6775494
5511624565085,-2.8551016,-0.30851692,3.930169
5511629295085,-3.0768337,-0.004937172,6.0614414
5511643485085,0.90597963,0.008269191,7.53887
5511648215085,1.3119184,-0.55005646,5.6216755
5511657675085,0.44823706,-0.6043957,1.460784
5511662405085,0.1330533,-0.30088615,-0.020749092
5511676595085,-0.3346647,0.26572335,-2.1866884
5511681325085,-0.38268304,0.486454,-2.3340573
5511690785085,-0.28328848,0.88025904,-2.40732
5511704975137,-0.19239926,0.48649967,-1.4618263
5511714435137,0.23996413,0.10418916,0.6877308
5511719165137,0.48001325,0.025433302,0.7103901
5511723895137,0.4281,-0.1133399,0.81032276
5511728625137,0.1238668,-0.21039307,0.82046986
5511733355137,-0.17265403,-0.24211466,0.7243328
5511738085137,-0.22263598,-0.20086145,0.5028467
5511742815137,-0.0587672,-0.08805561,0.241889
5511747545137,0.041356206,-0.014612079,0.034175873
5511752275137,0.08507061,0.037604332,-0.10417366
5511757005137,0.11956382,0.13165748,-0.2046814
5511761735137,0.168607,0.12446582,-0.334342
5511766465137,0.12820923,0.13308024,-0.38776588
5511771195137,0.06185651,0.035138845,-0.3839407
5511780655137,-0.050831556,-0.006298542,-0.15165806
5511785385137,-0.006764412,-0.012958169,-0.035531044
5511790115189,-0.018583536,0.01571393,0.059138298
5511804305189,0.004875064,0.020202398,0.06652832
5511813765189,-0.05069089,-0.008475304,-0.005801201
5511818495189,0.014172554,0.0048031807,-0.029882431
5511823225189,0.09813738,0.006247282,-0.07308006
5511832685189,0.0045177937,0.08128691,-0.04730797
5511837415189,-0.034433246,0.08818698,-0.052529335
5511846875189,-0.05462563,0.055342913,-0.08701229
5511851605241,-0.026507378,0.034574866,-0.058873177
5511856335241,0.0037748814,0.011467218,-0.045085907
5511865795241,-0.06673288,0.02431953,-0.13183212
5511865795241,-0.06673288,0.02431953,-0.13183212
5511870525241,-0.09854257,0.02423668,-0.13185692
5511879985241,-0.12396705,0.107732415,-0.052791595
5511884715241,-0.081484675,0.09831643,-0.012051582
5511889445293,-0.06578827,0.08432758,-0.011961937
5511898905293,-0.059762478,0.044300795,-0.059348106
5511903635293,-0.052181005,0.04193902,-0.05663681
5511917825293,0.043748736,0.006358266,-0.025237083
5511922555293,0.058771014,0.025687337,-0.027720451
5511932015345,0.06375468,0.043103337,0.012509346
5511941475345,0.010929704,0.0012446642,0.006890297
5511941475345,0.010929704,0.0012446642,0.006890297
5511946205345,0.010989904,-0.009983301,-0.03654957
5511960395345,-0.08802104,0.10894644,-0.060908318
5511969855397,-0.074977994,0.06312859,-0.09611225
5511969855397,-0.074977994,0.06312859,-0.09611225
5511974585397,-0.08159232,0.0077044964,-0.059544563
5511979315397,-0.101367116,-0.100063086,-0.039618492
5511988775397,-0.055149317,-0.18228066,0.009800911
5511998235449,-0.24526656,-0.48073357,-0.31277657
5511998235449,-0.24526656,-0.48073357,-0.31277657
5512002965449,-0.40832663,-0.9210859,-0.3846674
5512007695449,-0.38721168,-1.0924889,-0.4367714
5512017155449,-0.12843728,-0.93685627,-0.118974686
5512026615502,0.2003237,-0.75996923,0.18931484
5512031345502,0.34113193,-0.6364208,0.056331635
5512045535502,0.621384,-0.24160123,0.15274048
5512050265502,0.7006078,0.098600626,-0.27215195
5512054995502,0.5981624,0.37211514,-0.5402937
5512059725554,0.43637967,0.6220294,-0.59644794
5512064455554,0.28062272,0.6740233,-0.5981808
5512069185554,0.30508304,0.58775175,-0.4544344
5512073915554,0.36785305,0.567804,-0.100785255
5512078645554,0.28196907,0.61693144,0.50276375
5512088105606,-0.01577425,0.94467986,1.5110703
5512088105606,-0.01577425,0.94467986,1.5110703
5512097565606,-0.2993065,0.7093748,1.1433964
5512102295606,-0.4942695,0.6205741,0.54420185
5512107025606,-0.73014677,0.3989569,0.043204308
5512121215658,-0.47087955,-0.236,-1.5213199
5512130675658,-0.36060143,-0.8993194,-0.3046379
5512135405710,-0.23562312,-0.8262961,0.5316677
5512140135710,0.114459515,-0.6885706,1.0184898
5512149595710,0.7382157,-0.62023294,1.0892649
5512154325710,0.39571118,-0.55705726,0.7369356
5512168515762,-1.1863505,-0.23600447,-1.7176094
5512182705814,-0.09684825,-0.26364976,-0.43319225
5512187435814,0.21447659,0.056952655,0.31849575
5512192165814,0.4463296,0.5620182,0.9446745
5512196895814,0.5930028,0.96338487,1.2816095
5512215815866,0.07003164,0.96213424,1.640336
5512220545866,-0.14267778,0.82822764,1.4087744
5512225275918,-0.4122486,0.5980726,1.2984114
5512234735918,-0.5515822,0.31003487,1.4994726
5512234735918,-0.5515822,0.31003487,1.4994726
5512239465918,-0.58607066,0.2473943,2.1525192
5512244195970,-0.47960734,0.28748485,3.045434
5512248925970,-0.33417106,0.45741212,4.076907
5512253655970,-0.1362412,0.79563594,5.157484
5512258385970,0.15581727,1.2932396,6.1525183
5512263116022,0.30676174,1.7663821,6.8587637
5512272576022,0.55686545,1.9664884,6.897627
5512272576022,0.55686545,1.9664884,6.897627
5512277306022,0.78083766,1.8914272,6.799862
5512282036074,1.1714935,1.8883669,7.0130196
5512291496074,1.9279385,1.9396317,8.09151
5512296226074,2.017593,1.9651239,8.938086
5512310416127,1.9081265,1.3154479,10.72484
5512315146127,1.5454364,1.0892036,10.726855
5512329336179,-0.4462704,-0.24124633,10.779332
5512334066179,-0.7703259,-0.5856092,10.940341
5512343526231,-0.5022062,-0.5999616,11.068668
5512348256231,-0.2878863,-0.36110932,11.324924
5512362446283,-0.3079685,0.24708307,12.993498
5512367176283,-0.45493314,0.29266408,13.299059
5512376636335,-0.5322687,0.09883866,13.29284
5512381366335,-0.54998994,-0.15056491,12.733786
5512390826387,-0.9348349,-0.6876658,11.066857
5512395556387,-1.1927809,-0.98273814,10.162863
5512400286387,-1.3207722,-1.2111961,9.250164
5512409746439,-1.5195677,-1.6807954,7.323964
5512414476439,-1.5917618,-1.9856007,6.293255
5512428666491,-1.3922126,-2.1592293,3.3709412
5512433396491,-1.1074066,-2.0799289,2.533393
5512442856543,-0.5171851,-1.8881099,1.2071505
5512442856543,-0.5171851,-1.8881099,1.2071505
5512447586543,0.17773575,-1.8725054,0.38550377
5512461776595,1.0430956,-2.084392,-0.8912897
5512466506647,1.2995664,-1.984606,-1.3767376
5512475966647,1.3525797,-1.7060486,-2.153163
5512480696647,1.2276928,-1.6891445,-2.409471
5512494886699,1.3960109,-1.373616,-0.14861298
5512499616752,1.4903386,-1.3492703,1.0363741
5512509076752,1.7818646,-1.1660892,2.8027887
5512513806804,1.9967134,-1.0429271,3.3196783
5512527996856,2.3557086,-0.6482024,2.6532898
5512532726856,2.4218192,-0.5086241,2.1325846
5512542186908,2.5566313,-0.871068,0.8404827
5512546916908,2.4961307,-1.1803246,0.22150803
5512561106960,1.8891174,-1.5450137,-1.3381376
5512565836960,1.5653636,-1.6432109,-1.8422575
5512575297012,0.81496906,-2.2941961,-2.5726056
5512580027012,0.38926166,-2.7423,-2.7471204
5512594217064,-0.82093555,-2.963458,-3.1822624
5512598947116,-0.99667275,-2.911566,-2.9950624
5512608407168,-1.292173,-3.115236,-2.9728684
5512613137168,-1.6576728,-3.3663828,-3.0871797
5512627327220,-2.6965294,-3.4419749,-3.4357567
5512632057220,-2.8928483,-3.2588825,-3.5234966
5512646247324,-3.296125,-3.4672306,-3.8827186
5512660437377,-2.9039044,-3.6942806,-3.9680905
5512665167377,-2.6185122,-3.4369724,-4.087201
5512679357429,-1.6941886,-2.408612,-4.232497
5512684087429,-1.4301276,-2.262658,-4.211627
5512693547481,-1.0004728,-2.0810187,-4.2647457
5512698277533,-0.83355343,-1.9287646,-4.41226
5512712467585,-0.6707463,-1.4624679,-5.113246
5512721927585,-0.60625076,-1.623483,-5.561077
5512721927585,-0.60625076,-1.623483,-5.561077
5512731387637,-0.4870155,-2.1052954,-6.2899947
5512736117689,-0.41376805,-2.364278,-6.1714826
5512740847689,-0.43174112,-2.5510545,-5.7592387
5512750307741,-0.65207577,-2.4966617,-4.53933
5512755037741,-0.5480033,-2.3472345,-3.8984842
5512769227793,-0.21721005,-1.7646976,-2.5867548
5512769227793,-0.21721005,-1.7646976,-2.5867548
5512773957845,-0.20110774,-1.6062872,-2.166556
5512788147897,-0.294173,-1.2332554,-0.09831619
5512788147897,-0.294173,-1.2332554,-0.09831619
5512802337949,-0.18433428,-0.96806526,1.3182392
5512807068002,-0.12997293,-0.97390366,1.5564146
5512816528054,-0.16149521,-1.0225768,1.5662603
5512821258054,-0.2981131,-1.1811829,1.2828674
5512835448106,-0.61358166,-1.829294,-0.17303467
5512840178158,-0.6607666,-1.9510481,-0.6519289
5512854368210,-0.5332891,-1.9376786,-1.8389187
5512868558262,-0.49791265,-1.819941,-2.7413993
5512873288314,-0.6582869,-1.8497946,-2.855225
5512882748314,-0.9022547,-1.7241035,-2.8493671
5512887478366,-0.926317,-1.5597467,-2.7444897
5512901668418,-0.50829434,-1.3589981,-2.4547663
5512906398470,-0.34966397,-1.3226194,-2.5044775
5512920588522,-0.027759075,-1.1354158,-3.3824725
5512925318522,-0.03992939,-1.1787891,-3.8385491
5512934778574,0.07060671,-1.4616046,-4.716531
5512939508627,0.176934,-1.5442388,-5.12449
5512948968679,-0.021556139,-1.5449767,-5.903457
5512953698679,0.16016328,-1.718219,-6.138398
5512958428731,0.32412887,-1.8440595,-6.3224525
5512967888783,0.6010207,-1.5923374,-6.5629745
5512967888783,0.6010207,-1.5923374,-6.5629745
5512972618783,0.6913173,-1.3195865,-6.617914
5512986808835,0.75998926,-0.7170944,-6.156227
5513000998939,0.43570638,-0.70527935,-5.269905
5513005728939,0.16451359,-0.7234874,-4.9181733
5513010458991,-0.12491512,-0.73787594,-4.5637417
5513019919043,-0.5565605,-0.72200584,-3.9578257
5513024649043,-0.63384044,-0.70275354,-3.6744576
5513034109095,-0.71355236,-0.6685767,-3.3149738
5513038839147,-0.65901124,-0.6474962,-3.2713642
5513053029199,-0.625005,-0.51847076,-3.5157065
5513057759199,-0.6334027,-0.47596693,-3.7386875
5513067219252,-0.73608804,-0.3761568,-4.2586284
5513071949304,-0.7976525,-0.4875121,-4.469904
5513086139356,-0.71250665,-0.81211233,-5.3154907
5513090869408,-0.6470649,-0.850224,-5.635778
5513100329460,-0.5753399,-0.8749485,-6.3158646
5513105059460,-0.5579114,-0.86352825,-6.682915
5513119249564,-0.689343,-0.830194,-7.7013435
5513123979564,-0.80733705,-0.91466093,-7.9123354
5513133439616,-0.95710313,-0.8580308,-8.256412
5513138169668,-0.9270042,-0.77930737,-8.377494
5513147629720,-0.81292295,-0.54293203,-8.384594
5513152359720,-0.81143785,-0.50494766,-8.388102
5513157089772,-0.87669325,-0.5569005,-8.309673
5513166549824,-1.0884107,-0.89614534,-7.9702983
5513171279824,-1.1003554,-1.0136757,-7.78837
5513185469929,-1.3216084,-1.077013,-7.258866
5513190199929,-1.435588,-1.1172104,-7.0032644
5513199659981,-1.5726635,-1.0607839,-6.3292494
5513204390033,-1.5892389,-0.88792515,-5.999795
5513209120033,-1.5845928,-0.69776154,-5.6325073
5513218580085,-1.4076633,-0.36208773,-5.035034
5513237500241,-0.7330688,-0.20205402,-3.8275063
5513242230241,-0.57195735,-0.15179539,-3.5577297
5513246960293,-0.3937583,-0.13055563,-3.3147202
5513256420345,-0.12999439,-0.13211823,-2.8977504
5513265880397,-0.020083427,-0.23686123,-2.7193394
5513275340449,0.038230658,-0.4627869,-2.6738968
5513280070449,0.027602196,-0.53561306,-2.6893873
5513289530502,-0.04581976,-0.50299096,-2.7129426
5513294260554,-0.10804701,-0.42394233,-2.7452235
5513298990606,-0.15316582,-0.38008952,-2.771649
5513308450658,-0.2550602,-0.53752685,-2.8273153
5513313180658,-0.37801242,-0.77614045,-2.8117595
5513317910710,-0.5709424,-0.95504165,-2.8584414
5513322640710,-0.7694944,-1.1096964,-2.9698057
5513327370762,-0.9334059,-1.2062469,-3.0717616
5513332100762,-1.0512397,-1.3064353,-3.1452541
5513341560814,-1.2399088,-1.5042737,-3.047418
5513341560814,-1.2399088,-1.5042737,-3.047418
5513346290866,-1.3740243,-1.6564881,-2.8218703
5513351020866,-1.5365684,-1.816096,-2.5285406
5513355750918,-1.7242742,-2.0288706,-2.2703052
5513360480970,-1.8409944,-2.2142358,-1.9704204
5513365210970,-1.9059784,-2.3801222,-1.7122145
5513374671022,-1.8366101,-2.462967,-1.3213916
5513374671022,-1.8366101,-2.462967,-1.3213916
5513379401074,-1.6292123,-2.1310534,-1.2641416
5513384131074,-1.3360147,-1.5429244,-1.3060083
5513393591179,-0.84883416,-0.65715456,-1.3011303
5513398321179,-0.68635356,-0.5755868,-1.3381653
5513412511283,-0.3569647,-1.072036,-2.6332803
5513417241283,-0.32093275,-1.41628,-3.307973
5513426701335,-0.5172869,-2.1031885,-4.753142
5513431431387,-0.66622174,-2.2896369,-5.297203
5513445621491,-1.3835288,-2.5398698,-6.0843287
5513450351491,-1.7161674,-2.6848528,-5.978763
5513459811595,-2.2067862,-3.0494118,-5.3356857
5513464541595,-2.2229502,-3.029284,-4.820021
5513478731699,-1.7854621,-1.9768902,-3.5856576
5513483461752,-1.5383147,-1.5727427,-3.2191577
5513497651804,-0.98206425,-0.25656176,-2.5595222
5513507111856,-0.93102837,0.24550295,-3.3570514
5513511841908,-0.9801049,0.1821177,-3.9429502
5513516571960,-1.0334698,-0.09892464,-4.565678
5513526032012,-1.3767922,-0.8897196,-5.367523
5513530762012,-1.5685937,-1.46721,-5.2868943
5513535492064,-1.7306857,-2.110754,-4.8979135
5513544952116,-1.8138204,-2.9054465,-3.8030233
5513549682168,-1.708529,-2.9394183,-3.3598766
5513559142220,-1.5366184,-2.9509401,-2.1720233
5513563872220,-1.4154246,-2.7843242,-1.532486
5513568602272,-1.2243648,-2.4749646,-0.79002285
5513578062324,-0.8047697,-1.9355175,0.12137985
5513582792377,-0.38528645,-1.6938196,0.26939774
5513596982481,0.89283955,-1.235854,1.6175346
5513601712481,1.1475294,-1.1197895,2.7158089
5513611172585,0.7054192,-1.3543513,5.9507675
5513615902585,-0.14237213,-1.8096434,7.840354
5513630092689,-2.1248255,-2.8514977,12.36752
5513634822741,-2.6061325,-2.9710696,13.320277
5513649012845,-2.506033,-2.0986557,14.754597
5513653742845,-1.7980212,-1.7065878,14.92379
5513658472897,-0.900774,-1.3135415,15.057085
5513672663002,1.3360989,-0.52449167,13.701704
5513686853106,2.2822545,-0.4200062,11.305196
5513686853106,2.2822545,-0.4200062,11.305196
5513691583106,2.606089,-0.49735063,10.001316
5513701043158,2.5488687,-0.32185307,6.8359203
5513705773210,2.0948968,-0.2692783,5.3882227
5513710503262,1.5616096,-0.33741665,4.324112
5513724693366,1.1982228,-0.8310632,3.0047665
5513734153418,1.9329369,-1.0013489,2.143116
5513734153418,1.9329369,-1.0013489,2.143116
5513738883470,2.5388584,-0.806816,1.446208
5513743613470,2.725666,-0.4302566,-0.26645374
5513753073574,3.958664,0.102368906,-0.6895752
5513757803574,4.7868958,-0.10437404,-0.18504238
5513767263627,5.2242584,-1.1227334,0.4640379
5513767263627,5.2242584,-1.1227334,0.4640379
5513771993679,4.9822474,-1.5144533,0.8094425
5513776723731,4.690171,-1.667118,1.1261196
5513786183783,3.9155529,-2.0364041,1.1025028
5513786183783,3.9155529,-2.0364041,1.1025028
5513790913835,3.5915234,-1.9210396,3.9992218
5513805103887,3.4491262,2.5581229,27.981785
5513809833939,4.179659,4.3156786,30.628672
5513824024043,1.6095293,2.4453025,28.628305
5513833484095,1.1971877,0.30101085,14.953763
5513838214147,0.62216663,1.012351,7.5566645
5513842944199,-0.26113153,2.566934,3.1856909
5513852404252,-1.1898172,4.0594234,-1.6597528
5513857134304,-1.972495,3.658195,-3.1601305
5513871324408,-4.6252265,0.74436116,-2.610519
5513876054408,-3.9785438,0.13554382,-2.0266342
5513885514512,-1.9666293,-0.2909372,-0.733881
5513890244512,-0.96965814,-0.419061,-0.27605534
5513904434616,1.6491151,-0.68051237,0.086709976
5513904434616,1.6491151,-0.68051237,0.086709976
5513909164668,2.1616416,-0.72982824,-0.06594944
5513918624720,2.9159975,-0.8797975,-0.8311281
5513923354772,3.2760131,-0.87184495,-1.4205208
5513928084824,3.6323256,-0.81220883,-2.1471276
5513937544877,3.4555707,-0.86344135,-3.3318992
5513942274929,2.6554983,-0.9822977,-3.4956617
5513956465033,-0.5775249,-0.70589674,-1.6759934
5513965925085,-1.3856623,-0.37720737,-0.46692753
5513975385137,-1.0828935,0.038527787,-0.23195648
5513975385137,-1.0828935,0.038527787,-0.23195648
5513980115189,-0.85452425,0.19679332,-0.25749207
5513984845241,-0.67836905,0.25502515,-0.3155079
5513989575293,-0.5552894,0.25548494,-0.22059536
5513994305293,-0.698248,0.08018911,0.9748297
5513999035345,-0.22902632,0.07685304,0.65572166
5514008495397,0.004826784,0.014386892,0.50485134
5514013225449,-0.103153706,0.04340422,0.7686291
5514017955502,-0.04481721,0.17811811,1.0290165
5514027415554,0.48568392,0.55025744,0.9651489
5514027415554,0.48568392,0.55025744,0.9651489
5514032145606,0.5275252,0.538262,0.8689604
5514041605658,0.099425316,0.19112933,0.69171906
5514041605658,0.099425316,0.19112933,0.69171906
5514046335710,0.04128647,0.03347075,0.70078754
5514051065710,0.039604425,-0.056974173,0.6766777
5514060525814,-0.07297373,-0.015705824,0.33386326
5514060525814,-0.07297373,-0.015705824,0.33386326
5514065255866,-0.12403798,0.08697641,0.07275486
5514074715918,-0.13865757,0.23084211,-0.38527584
5514074715918,-0.13865757,0.23084211,-0.38527584
5514079445970,-0.12575316,0.23944187,-0.5322809
5514084175970,-0.10611272,0.19811904,-0.56669426
5514093636074,-0.010143518,0.099256516,-0.49908257
5514098366074,0.02978611,0.100664854,-0.44951534
5514107826179,-0.050294638,0.12560022,-0.35854053
5514107826179,-0.050294638,0.12560022,-0.35854053
5514117286231,-0.061774492,0.029610276,-0.25055218
5514117286231,-0.061774492,0.029610276,-0.25055218
5514126746335,0.052612305,-0.04362619,-0.22125721
5514126746335,0.052612305,-0.04362619,-0.22125721
5514131476335,0.019798517,-0.05276692,-0.19855595
5514136206387,0.005072832,-0.015174866,-0.15160942
5514150396491,0.22548199,-0.025826216,0.21194077
5514159856595,0.21993399,0.031101227,0.20254803
5514164586595,0.156461,0.07957494,0.15999126
5514169316647,0.093713045,0.14618862,0.12194824
5514174046699,0.055180788,0.14704978,0.09570122
5514183506752,-0.015879631,0.06613481,0.26961136
5514192966856,0.10078359,0.025173783,0.39163685
5514192966856,0.10078359,0.025173783,0.39163685
5514197696856,0.11864734,0.05502367,0.3660698
5514202426908,0.03622961,0.04998505,0.29022408
5514211887012,-0.123755455,-0.034687757,0.3181162
5514211887012,-0.123755455,-0.034687757,0.3181162
5514216617012,-0.110453606,-0.03974104,0.44312668
5514226077116,0.07376695,-0.022698402,0.6657772
5514226077116,0.07376695,-0.022698402,0.6657772
5514230807168,0.10865438,-0.024667978,0.62245846
5514244997272,-0.0450505,-0.56205684,0.60774326
5514249727324,-0.061240077,-0.7775236,0.64412117
5514263917429,-0.060526848,-0.5385144,1.1279716
5514268647429,0.010950208,-0.35618973,1.4273424
5514278107533,0.25148296,-0.0865016,1.9639521
5514282837585,0.31589305,-0.04046786,2.032092
5514297027689,-0.012004852,0.40664583,3.0719109
5514301757741,-0.22420561,0.17826867,3.2581396
5514315947845,-0.86801165,-0.30363134,3.1511478
5514330137949,-1.6327703,-0.9109107,3.3796902
5514334868002,-1.7525721,-0.9577632,3.5215225
5514344328054,-1.7537636,-0.78891975,3.8783884
5514349058106,-1.6650282,-0.6648296,4.047427
5514353788158,-1.5456188,-0.6633532,4.1683474
5514363248210,-1.3187786,-0.5772033,3.990182
5514367978262,-1.2560896,-0.45079657,3.6815538
5514377438366,-1.1855401,-0.31846723,2.6947632
5514382168366,-1.1801465,-0.39933592,2.016943
5514386898418,-1.2109675,-0.5195475,1.2771988
5514391628470,-1.2251284,-0.6463275,0.60490704
5514401088522,-1.1362444,-0.59917307,-0.28600502
5514410548627,-0.9667586,-0.03889364,-0.65838146
5514415278679,-0.92607987,0.120695055,-0.7779846
5514420008731,-0.9674312,0.20521134,-0.8228855
5514424738731,-1.1561555,0.21427554,-0.7429552
5514429468783,-1.4847499,0.15947717,-0.49298477
5514434198835,-1.9190774,0.07411176,-0.101924896
5514443658887,-2.7403612,-0.2560541,0.791976
5514443658887,-2.7403612,-0.2560541,0.791976
5514448388939,-2.9280884,-0.33058593,1.2588959
5514453118991,-2.957705,-0.3222573,1.6419973
5514462579043,-2.6224883,-0.0836954,2.1978579
5514467309095,-2.4098418,-0.01935327,2.5116491
5514476769199,-2.324037,-0.36459565,2.9858284
5514481499199,-2.2388866,-0.37008786,2.9432373
5514486229252,-2.085264,-0.21852854,2.6978416
5514495689356,-1.3505996,-0.045673028,1.9963808
5514500419408,-0.9283911,-0.07769109,1.5070801
5514514609512,0.20061027,-0.015776262,-0.32985592
5514514609512,0.20061027,-0.015776262,-0.32985592
5514519339564,0.24851032,0.14300315,-0.7887697
5514528799616,0.23008436,0.3593712,-1.0502205
5514533529668,0.46332544,0.4670764,-0.9945593
5514542989772,0.7932931,0.793354,-0.5503769
5514547719824,0.84805846,0.89388865,-0.18384838
5514552449824,0.8117469,0.86937904,0.19593906
5514566639981,0.6144656,0.6714989,0.9192352
5514576100033,0.22753295,0.55318975,1.4392967
5514580830085,-0.052232474,0.43378317,1.5582733
5514585560137,-0.3758403,0.31992143,1.6583433
5514595020241,-1.249451,-0.06458795,2.0145378
5514599750241,-1.5945928,-0.31800094,2.0865698
5514613940397,-2.548256,-1.1208721,1.4613371
5514618670449,-2.8347,-1.1626313,1.2652359
5514628130502,-2.9150631,-1.111506,0.958333
5514632860554,-2.6626384,-1.0218521,0.7687206
5514637590606,-2.2978015,-0.853788,0.46506882
5514642320658,-1.7957605,-0.78361833,0.076174736
5514647050658,-1.375818,-1.0994134,-0.2975645
5514651780710,-1.0729281,-1.3291937,-0.69687843
5514656510762,-0.8978355,-1.3510199,-1.0739937
5514661240814,-0.74896574,-1.2986383,-1.4337902
5514670700918,-0.49060252,-1.2176596,-2.037187
5514675430918,-0.33263612,-1.1847252,-2.149446
5514684891022,-0.009983584,-0.9327288,-2.2224407
5514694351127,0.30124652,-0.5894545,-2.162397
5514699081179,0.49236852,-0.42081344,-2.105289
5514703811179,0.7203315,-0.308298,-2.1120887
5514708541231,0.802867,-0.21817195,-2.3093271
5514713271283,0.72181964,-0.18345535,-2.5891738
5514718001335,0.55741096,-0.24218142,-2.8151827
5514727461387,0.12487173,-0.6214453,-2.6895752
5514727461387,0.12487173,-0.6214453,-2.6895752
5514732191439,0.13749236,-0.8637569,-2.4338193
5514736921491,0.27461904,-0.9875002,-2.239357
5514746381595,0.43380976,-0.84596455,-2.4318566
5514751111647,0.38359654,-0.76963127,-2.7092748
5514760571699,0.3660552,-0.7137439,-3.1305594
5514760571699,0.3660552,-0.7137439,-3.1305594
5514765301752,0.43622887,-0.76694953,-3.2629905
5514770031804,0.5345232,-0.888433,-3.4533048
5514779491908,0.69817054,-1.0042373,-3.8227396
5514788951960,1.2501041,-0.81151617,-3.7503896
5514788951960,1.2501041,-0.81151617,-3.7503896
5514793682012,1.6312635,-0.76396775,-3.5544076
5514803142116,2.3643816,-0.7977929,-3.6993995
5514807872168,2.5533528,-0.66461205,-3.9696884
5514822062272,2.7563877,-0.40640736,-4.306186
5514826792324,2.892095,-0.50769234,-4.130467
5514840982481,3.2072735,-0.24551344,-3.501225
5514840982481,3.2072735,-0.24551344,-3.501225
5514840982481,3.2072735,-0.24551344,-3.501225
5514845712481,3.2816234,-0.028470278,-3.0156846
5514855172585,2.6825852,0.33821607,-1.7446613
5514859902637,2.3181298,0.41314125,-1.2449737
5514869362741,1.9780717,0.36772442,-0.709857
5514874092793,1.8447609,0.38227987,-0.3020811
5514888282897,1.6564021,0.43990874,1.4100962
5514888282897,1.6564021,0.43990874,1.4100962
5514893012949,1.4425931,0.37648034,1.1559381
5514902473054,1.4566789,0.2520957,-0.618103
5514907203106,1.5395029,0.107732534,-1.4144392
5514921393210,1.7335837,-0.7020352,-2.286776
5514926123262,1.8926036,-0.6511595,-2.5277905
5514935583366,2.3548179,-0.22026324,-1.585958
5514940313418,2.5613453,0.44944382,-2.3840308
5514945043418,2.5977087,0.7018788,-2.1525311
5514954503522,2.18941,0.5869446,-0.8211956
5514959233574,1.8859906,0.58985114,-0.54253674
5514973423731,0.9981139,0.4829762,0.16787434
5514978153783,0.46776128,0.40393972,0.20871353
5514987613835,-0.29970288,0.14192677,0.22468567
5514992343887,-0.41498542,-0.010981321,0.14091206
5515006534043,-0.7647543,-0.6626339,-0.7939167
5515011264095,-0.9317558,-0.8204446,-1.077425
5515020724147,-0.9294615,-0.83061695,-1.264976
5515025454199,-0.76112866,-0.70272493,-1.1642032
5515039644356,-0.17576623,-0.34961033,-0.67704535
5515044374408,-0.0073165894,-0.19503617,-0.330554
5515053834512,0.47852325,0.14335656,0.19746971
5515058564564,0.69095707,0.34086442,0.1953249
5515068024616,0.8683512,0.5375638,-0.08125687
5515072754668,0.8908806,0.56794906,-0.06625652
5515077484720,0.86887074,0.5296211,-0.047514915
5515086944824,0.6597278,0.5151131,-0.022164345
5515091674877,0.380589,0.64425564,-0.16414738
5515105864981,-0.2835698,0.31023788,-0.014340401
5515110595033,-0.3095162,0.13175797,0.012763977
5515120055137,-0.33984017,0.040631533,-0.18406487
5515124785189,-0.3467648,-0.026972055,-0.17864132
5515129515241,-0.3460343,-0.08085084,-0.17990685
5515138975345,-0.30991626,-0.029726505,-0.17921162
5515143705397,-0.22863865,-0.09056687,-0.15699577
5515153165449,-0.055290937,-0.28111577,-0.22831059
5515157895502,0.14479446,-0.24637842,-0.2848959
5515162625554,0.35859084,-0.1285286,-0.3591156
5515172085658,0.8223231,0.1506548,-0.30098248
5515176815710,0.9677172,0.22815108,-0.30518246
5515186275814,1.0715988,0.21853042,-0.2867031
5515191005866,0.9106486,0.28221083,-0.29506493
5515195735918,0.5885117,0.29293084,-0.2572546
5515205195970,0.06018305,0.14493775,0.021348953
5515209926022,-0.19939423,0.019788504,0.20384121
5515219386127,-0.28504062,-0.08370137,0.19551277
5515224116179,-0.20125866,-0.037658453,0.16670704
5515228846231,0.0028355122,0.06421161,0.10734844
5515238306335,0.26318955,0.22288728,-0.15118122
5515243036387,0.27538323,0.16492009,-0.2611971
5515252496491,0.2045908,0.079678535,-0.32394838
5515257226543,0.14188576,0.14495754,-0.32134008
5515261956543,0.071614265,0.15741825,-0.3064928
5515271416647,0.040985584,0.045036077,-0.31700802
5515276146699,0.091584444,-0.0036108494,-0.25098896
5515285606804,0.25864887,0.10207915,-0.08922386
5515290336856,0.26641512,0.15620255,-0.09697819
5515295066908,0.17069435,0.11688113,-0.13298607
5515304527012,-0.14885998,-0.027977943,-0.12899113
5515309257064,-0.25410128,-0.07371807,-0.047952652
5515323447168,-0.30017972,-0.03581357,0.18056011
5515328177220,-0.28328085,0.0051271915,0.21319962
5515337637324,-0.15660596,0.074365854,0.025865555
5515342367377,-0.16354156,0.08888817,-0.058171272
5515347097429,-0.2016089,0.1356771,-0.103108406
5515351827481,-0.21388483,0.17376375,-0.053673744
5515361287585,-0.2730496,0.13105416,-0.013148308
5515366017637,-0.2930858,0.04220605,0.031841278
5515370747689,-0.2113483,0.04335451,0.11589527
5515375477741,-0.025209427,0.11975789,0.15048695
5515380207793,0.16756964,0.22831345,0.13550663
5515384937845,0.3025155,0.3189323,-0.062898636
5515389667897,0.29577732,0.31084847,-0.29639292
5515394397897,0.2933278,0.21908331,-0.5173807
5515403858002,0.2550168,0.09172988,-0.4046297
5515408588054,0.2031691,0.09137678,-0.16233253
5515413318106,0.17680621,0.15183282,-0.115561485
5515418048158,0.0941906,0.15493584,-0.20707512
5515422778210,-0.020331621,0.15374303,-0.3220601
5515427508262,-0.109137535,0.08896589,-0.26119375
5515436968366,-0.2407465,-0.03571558,-0.14097309
5515441698418,-0.29638982,-0.08359742,-0.22345543
5515446428470,-0.30586195,-0.11160493,-0.27965927
5515451158522,-0.20044732,-0.10088444,-0.20317793
5515460618627,-0.04739666,0.04476905,-0.17772865
5515465348679,-0.014300346,-0.00537467,-0.17581749
5515479538835,-0.0781486,-0.25332856,-1.3264222
5515488998887,0.22045016,0.054300785,-0.08200359
5515488998887,0.22045016,0.054300785,-0.08200359
5515493728939,0.33564138,0.2996409,0.53171825
5515503189043,0.49335194,0.46653175,1.2555122
5515503189043,0.49335194,0.46653175,1.2555122
5515507919095,0.47254658,0.50547194,1.4744625
5515512649147,0.32990122,0.49902654,1.4855232
5515526839304,-0.26630092,0.14161515,0.9595156
5515536299408,-0.27527165,-0.046292543,0.7551613
5515559949668,0.36500597,-0.011009455,0.18300247
